[{"rt":8353,"stimulus":"\n        <p>In this experiment you will see sentences with the final word removed, like this:</p>\n        <p>Jack and Jill went up the ______.</p>\n        <p>Your task is to provide your best guess of the word that completes the sentence. Your response must be a single word.</p>\n        <p>There are 45 sentences to complete.</p>\n        <p>After you input a word, you may use the button on the screen or the enter key to advance to the next sentence.</p>\n        <p>Press Enter to begin.</p>\n      ","response":"enter","trial_type":"html-keyboard-response","trial_index":0,"time_elapsed":8362,"internal_node_id":"0.0-0.0","subject_id":"60fc741369c95ce0ee91b20e","study_id":"6205543bd1cd84ff15f8af22","session_id":"6205ae06e219ba950debd185"},{"response":"disaster","sentence_id":165,"sentence":"Nature has three ways of thinning the herd: drought, famine, and % %","joke_ending":"primaries","nonjoke_ending":"hunting","trial_type":"cloze","trial_index":1,"time_elapsed":15872,"internal_node_id":"0.0-1.0-0.0","subject_id":"60fc741369c95ce0ee91b20e","study_id":"6205543bd1cd84ff15f8af22","session_id":"6205ae06e219ba950debd185"},{"response":"dog","sentence_id":178,"sentence":"I know one couple who got divorced and had to leave the house to the % %","joke_ending":"attorney","nonjoke_ending":"daughter","trial_type":"cloze","trial_index":2,"time_elapsed":23152,"internal_node_id":"0.0-1.0-0.1","subject_id":"60fc741369c95ce0ee91b20e","study_id":"6205543bd1cd84ff15f8af22","session_id":"6205ae06e219ba950debd185"},{"response":"sex","sentence_id":157,"sentence":"The best gift for the man who has everything is % %","joke_ending":"penicillin","nonjoke_ending":"neckties","trial_type":"cloze","trial_index":3,"time_elapsed":28214,"internal_node_id":"0.0-1.0-0.2","subject_id":"60fc741369c95ce0ee91b20e","study_id":"6205543bd1cd84ff15f8af22","session_id":"6205ae06e219ba950debd185"},{"response":"seperated","sentence_id":141,"sentence":"My husband and I were happy for 20 years, and then we % %","joke_ending":"met","nonjoke_ending":"divorced","trial_type":"cloze","trial_index":4,"time_elapsed":38947,"internal_node_id":"0.0-1.0-0.3","subject_id":"60fc741369c95ce0ee91b20e","study_id":"6205543bd1cd84ff15f8af22","session_id":"6205ae06e219ba950debd185"},{"response":"problem","sentence_id":142,"sentence":"If you're not part of the solution, you're part of the % %","joke_ending":"precipitate","nonjoke_ending":"issue","trial_type":"cloze","trial_index":5,"time_elapsed":44496,"internal_node_id":"0.0-1.0-0.4","subject_id":"60fc741369c95ce0ee91b20e","study_id":"6205543bd1cd84ff15f8af22","session_id":"6205ae06e219ba950debd185"},{"response":"bold","sentence_id":160,"sentence":"When reviewing your notes for a test, the most important ones will be % %","joke_ending":"illegible","nonjoke_ending":"capitalized","trial_type":"cloze","trial_index":6,"time_elapsed":51320,"internal_node_id":"0.0-1.0-0.5","subject_id":"60fc741369c95ce0ee91b20e","study_id":"6205543bd1cd84ff15f8af22","session_id":"6205ae06e219ba950debd185"},{"response":"kids","sentence_id":173,"sentence":"Love has its benefits, and they are usually called % %","joke_ending":"alimony","nonjoke_ending":"memories","trial_type":"cloze","trial_index":7,"time_elapsed":56252,"internal_node_id":"0.0-1.0-0.6","subject_id":"60fc741369c95ce0ee91b20e","study_id":"6205543bd1cd84ff15f8af22","session_id":"6205ae06e219ba950debd185"},{"response":"publisher","sentence_id":144,"sentence":"I asked him if he started out as an editor, and he said that years ago he used to be a % %","joke_ending":"boy","nonjoke_ending":"journalist","trial_type":"cloze","trial_index":8,"time_elapsed":70243,"internal_node_id":"0.0-1.0-0.7","subject_id":"60fc741369c95ce0ee91b20e","study_id":"6205543bd1cd84ff15f8af22","session_id":"6205ae06e219ba950debd185"},{"response":"dog","sentence_id":174,"sentence":"When we got divorced, my wife and I split the house; she got the % %","joke_ending":"inside","nonjoke_ending":"kitchen","trial_type":"cloze","trial_index":9,"time_elapsed":75250,"internal_node_id":"0.0-1.0-0.8","subject_id":"60fc741369c95ce0ee91b20e","study_id":"6205543bd1cd84ff15f8af22","session_id":"6205ae06e219ba950debd185"},{"response":"cows","sentence_id":152,"sentence":"To clothe one soldier, it takes the wool from two sheep and the hides from three % %","joke_ending":"taxpayers","nonjoke_ending":"animals","trial_type":"cloze","trial_index":10,"time_elapsed":99323,"internal_node_id":"0.0-1.0-0.9","subject_id":"60fc741369c95ce0ee91b20e","study_id":"6205543bd1cd84ff15f8af22","session_id":"6205ae06e219ba950debd185"},{"response":"box","sentence_id":147,"sentence":"One way to keep porn away from teenagers is to put it in a % %","joke_ending":"textbook","nonjoke_ending":"cabinet","trial_type":"cloze","trial_index":11,"time_elapsed":113596,"internal_node_id":"0.0-1.0-0.10","subject_id":"60fc741369c95ce0ee91b20e","study_id":"6205543bd1cd84ff15f8af22","session_id":"6205ae06e219ba950debd185"},{"response":"weed","sentence_id":155,"sentence":"A good way to blow your mind is to smoke % %","joke_ending":"gunpowder","nonjoke_ending":"heroin","trial_type":"cloze","trial_index":12,"time_elapsed":118763,"internal_node_id":"0.0-1.0-0.11","subject_id":"60fc741369c95ce0ee91b20e","study_id":"6205543bd1cd84ff15f8af22","session_id":"6205ae06e219ba950debd185"},{"response":"sports","sentence_id":156,"sentence":"The most prevalent form of legalized gambling is % %","joke_ending":"elections","nonjoke_ending":"betting","trial_type":"cloze","trial_index":13,"time_elapsed":134465,"internal_node_id":"0.0-1.0-0.12","subject_id":"60fc741369c95ce0ee91b20e","study_id":"6205543bd1cd84ff15f8af22","session_id":"6205ae06e219ba950debd185"},{"response":"boxes","sentence_id":164,"sentence":"When the kid came into the store and asked for empty boxes, the owner gave him the % %","joke_ending":"register","nonjoke_ending":"crate","trial_type":"cloze","trial_index":14,"time_elapsed":141706,"internal_node_id":"0.0-1.0-0.13","subject_id":"60fc741369c95ce0ee91b20e","study_id":"6205543bd1cd84ff15f8af22","session_id":"6205ae06e219ba950debd185"},{"response":"money","sentence_id":179,"sentence":"When you own an ice cream business, your favorite flavor is % %","joke_ending":"aspirin","nonjoke_ending":"everything","trial_type":"cloze","trial_index":15,"time_elapsed":146160,"internal_node_id":"0.0-1.0-0.14","subject_id":"60fc741369c95ce0ee91b20e","study_id":"6205543bd1cd84ff15f8af22","session_id":"6205ae06e219ba950debd185"},{"response":"father","sentence_id":150,"sentence":"In some marriages the bride is given away by the % %","joke_ending":"press","nonjoke_ending":"family","trial_type":"cloze","trial_index":16,"time_elapsed":151339,"internal_node_id":"0.0-1.0-0.15","subject_id":"60fc741369c95ce0ee91b20e","study_id":"6205543bd1cd84ff15f8af22","session_id":"6205ae06e219ba950debd185"},{"response":"big","sentence_id":159,"sentence":"The first two hundred story building opened in Chicago; it was a % %","joke_ending":"library","nonjoke_ending":"hotel","trial_type":"cloze","trial_index":17,"time_elapsed":164282,"internal_node_id":"0.0-1.0-0.16","subject_id":"60fc741369c95ce0ee91b20e","study_id":"6205543bd1cd84ff15f8af22","session_id":"6205ae06e219ba950debd185"},{"response":"south","sentence_id":175,"sentence":"She asked what state he was born in, and he said in the % %","joke_ending":"nude","nonjoke_ending":"East","trial_type":"cloze","trial_index":18,"time_elapsed":180599,"internal_node_id":"0.0-1.0-0.17","subject_id":"60fc741369c95ce0ee91b20e","study_id":"6205543bd1cd84ff15f8af22","session_id":"6205ae06e219ba950debd185"},{"response":"broken","sentence_id":168,"sentence":"He told me he's not broke, just badly % %","joke_ending":"bent","nonjoke_ending":"off","trial_type":"cloze","trial_index":19,"time_elapsed":187843,"internal_node_id":"0.0-1.0-0.18","subject_id":"60fc741369c95ce0ee91b20e","study_id":"6205543bd1cd84ff15f8af22","session_id":"6205ae06e219ba950debd185"},{"response":"tofurkey","sentence_id":172,"sentence":"The perfect companion to a vegetarian dinner is a % %","joke_ending":"steak","nonjoke_ending":"salad","trial_type":"cloze","trial_index":20,"time_elapsed":201891,"internal_node_id":"0.0-1.0-0.19","subject_id":"60fc741369c95ce0ee91b20e","study_id":"6205543bd1cd84ff15f8af22","session_id":"6205ae06e219ba950debd185"},{"response":"side","sentence_id":163,"sentence":"He was teaching his girlfriend how to swim when the lifeguard made them move to the % %","joke_ending":"lake","nonjoke_ending":"shallows","trial_type":"cloze","trial_index":21,"time_elapsed":213016,"internal_node_id":"0.0-1.0-0.20","subject_id":"60fc741369c95ce0ee91b20e","study_id":"6205543bd1cd84ff15f8af22","session_id":"6205ae06e219ba950debd185"},{"response":"clothed","sentence_id":138,"sentence":"Do strippers ever have nightmares about showing up to work % %","joke_ending":"clothed","nonjoke_ending":"late","trial_type":"cloze","trial_index":22,"time_elapsed":218283,"internal_node_id":"0.0-1.0-0.21","subject_id":"60fc741369c95ce0ee91b20e","study_id":"6205543bd1cd84ff15f8af22","session_id":"6205ae06e219ba950debd185"},{"response":"movement","sentence_id":158,"sentence":"Save the whales; start a % %","joke_ending":"collection","nonjoke_ending":"coalition","trial_type":"cloze","trial_index":23,"time_elapsed":226432,"internal_node_id":"0.0-1.0-0.22","subject_id":"60fc741369c95ce0ee91b20e","study_id":"6205543bd1cd84ff15f8af22","session_id":"6205ae06e219ba950debd185"},{"response":"cancer","sentence_id":153,"sentence":"Once a week they hold a bingo game, and all the proceeds go to fight % %","joke_ending":"gambling","nonjoke_ending":"disease","trial_type":"cloze","trial_index":24,"time_elapsed":230662,"internal_node_id":"0.0-1.0-0.23","subject_id":"60fc741369c95ce0ee91b20e","study_id":"6205543bd1cd84ff15f8af22","session_id":"6205ae06e219ba950debd185"},{"response":"speech","sentence_id":167,"sentence":"The difference between a good speaker and a bad one is often a nice % %","joke_ending":"nap","nonjoke_ending":"diction","trial_type":"cloze","trial_index":25,"time_elapsed":234923,"internal_node_id":"0.0-1.0-0.24","subject_id":"60fc741369c95ce0ee91b20e","study_id":"6205543bd1cd84ff15f8af22","session_id":"6205ae06e219ba950debd185"},{"response":"incest","sentence_id":166,"sentence":"Politicians who are as American as apple pie still want their % %","joke_ending":"slice","nonjoke_ending":"rewards","trial_type":"cloze","trial_index":26,"time_elapsed":244549,"internal_node_id":"0.0-1.0-0.25","subject_id":"60fc741369c95ce0ee91b20e","study_id":"6205543bd1cd84ff15f8af22","session_id":"6205ae06e219ba950debd185"},{"response":"monopoly","sentence_id":140,"sentence":"Statistics indicate that Americans spend 80 million a year on games of chance, mostly % %","joke_ending":"weddings","nonjoke_ending":"dice","trial_type":"cloze","trial_index":27,"time_elapsed":253665,"internal_node_id":"0.0-1.0-0.26","subject_id":"60fc741369c95ce0ee91b20e","study_id":"6205543bd1cd84ff15f8af22","session_id":"6205ae06e219ba950debd185"},{"response":"hands","sentence_id":151,"sentence":"When John bought a bulldog, it was no time at all before he had that dog eating out of his % %","joke_ending":"leg","nonjoke_ending":"fingers","trial_type":"cloze","trial_index":28,"time_elapsed":259997,"internal_node_id":"0.0-1.0-0.27","subject_id":"60fc741369c95ce0ee91b20e","study_id":"6205543bd1cd84ff15f8af22","session_id":"6205ae06e219ba950debd185"},{"response":"tusks","sentence_id":154,"sentence":"The best way to stop an elephant from charging is to cut off its % %","joke_ending":"credit","nonjoke_ending":"toes","trial_type":"cloze","trial_index":29,"time_elapsed":267465,"internal_node_id":"0.0-1.0-0.28","subject_id":"60fc741369c95ce0ee91b20e","study_id":"6205543bd1cd84ff15f8af22","session_id":"6205ae06e219ba950debd185"},{"response":"library","sentence_id":148,"sentence":"The only place where you can find people who spend all their time minding their own business is the % %","joke_ending":"cemetery","nonjoke_ending":"bank","trial_type":"cloze","trial_index":30,"time_elapsed":274684,"internal_node_id":"0.0-1.0-0.29","subject_id":"60fc741369c95ce0ee91b20e","study_id":"6205543bd1cd84ff15f8af22","session_id":"6205ae06e219ba950debd185"},{"response":"boondocks","sentence_id":149,"sentence":"It is hard to raise a family nowadays, especially in the % %","joke_ending":"morning","nonjoke_ending":"country","trial_type":"cloze","trial_index":31,"time_elapsed":280275,"internal_node_id":"0.0-1.0-0.30","subject_id":"60fc741369c95ce0ee91b20e","study_id":"6205543bd1cd84ff15f8af22","session_id":"6205ae06e219ba950debd185"},{"response":"bird","sentence_id":139,"sentence":"For the record, I bought a % %","joke_ending":"turntable","nonjoke_ending":"ticket","trial_type":"cloze","trial_index":32,"time_elapsed":283737,"internal_node_id":"0.0-1.0-0.31","subject_id":"60fc741369c95ce0ee91b20e","study_id":"6205543bd1cd84ff15f8af22","session_id":"6205ae06e219ba950debd185"},{"response":"taxes","sentence_id":145,"sentence":"Congress taxes our income, our property, and our % %","joke_ending":"patience","nonjoke_ending":"purchases","trial_type":"cloze","trial_index":33,"time_elapsed":294737,"internal_node_id":"0.0-1.0-0.32","subject_id":"60fc741369c95ce0ee91b20e","study_id":"6205543bd1cd84ff15f8af22","session_id":"6205ae06e219ba950debd185"},{"response":"microsoft","sentence_id":177,"sentence":"This new computer works so quickly, it comes complete with % %","joke_ending":"ulcers","nonjoke_ending":"games","trial_type":"cloze","trial_index":34,"time_elapsed":304145,"internal_node_id":"0.0-1.0-0.33","subject_id":"60fc741369c95ce0ee91b20e","study_id":"6205543bd1cd84ff15f8af22","session_id":"6205ae06e219ba950debd185"},{"response":"mirror","sentence_id":146,"sentence":"The best bargain I ever got was when I went to a family garage sale and bought a % %","joke_ending":"grandma","nonjoke_ending":"toaster","trial_type":"cloze","trial_index":35,"time_elapsed":311096,"internal_node_id":"0.0-1.0-0.34","subject_id":"60fc741369c95ce0ee91b20e","study_id":"6205543bd1cd84ff15f8af22","session_id":"6205ae06e219ba950debd185"},{"response":"money","sentence_id":162,"sentence":"If there's one thing that counts in business, it's % %","joke_ending":"bookkeepers","nonjoke_ending":"resources","trial_type":"cloze","trial_index":36,"time_elapsed":318011,"internal_node_id":"0.0-1.0-0.35","subject_id":"60fc741369c95ce0ee91b20e","study_id":"6205543bd1cd84ff15f8af22","session_id":"6205ae06e219ba950debd185"},{"response":"head","sentence_id":137,"sentence":"I bought coconut shampoo the other day, but I realized I don't even have a % %","joke_ending":"coconut","nonjoke_ending":"shower","trial_type":"cloze","trial_index":37,"time_elapsed":326735,"internal_node_id":"0.0-1.0-0.36","subject_id":"60fc741369c95ce0ee91b20e","study_id":"6205543bd1cd84ff15f8af22","session_id":"6205ae06e219ba950debd185"},{"response":"break","sentence_id":170,"sentence":"If you're filthy rich, sending your kids to college is a wonderful % %","joke_ending":"cleaner","nonjoke_ending":"luxury","trial_type":"cloze","trial_index":38,"time_elapsed":337537,"internal_node_id":"0.0-1.0-0.37","subject_id":"60fc741369c95ce0ee91b20e","study_id":"6205543bd1cd84ff15f8af22","session_id":"6205ae06e219ba950debd185"},{"response":"levels","sentence_id":136,"sentence":"Crime in multi-story car parks. That is wrong in so many different % %","joke_ending":"levels","nonjoke_ending":"ways","trial_type":"cloze","trial_index":39,"time_elapsed":344456,"internal_node_id":"0.0-1.0-0.38","subject_id":"60fc741369c95ce0ee91b20e","study_id":"6205543bd1cd84ff15f8af22","session_id":"6205ae06e219ba950debd185"},{"response":"side","sentence_id":176,"sentence":"The husband who catches his wife in the act is probably on the % %","joke_ending":"trapeze","nonjoke_ending":"snoop","trial_type":"cloze","trial_index":40,"time_elapsed":350363,"internal_node_id":"0.0-1.0-0.39","subject_id":"60fc741369c95ce0ee91b20e","study_id":"6205543bd1cd84ff15f8af22","session_id":"6205ae06e219ba950debd185"},{"response":"birthday","sentence_id":161,"sentence":"It's always nicer to give than to receive, especially when its your % %","joke_ending":"opinion","nonjoke_ending":"parents","trial_type":"cloze","trial_index":41,"time_elapsed":356400,"internal_node_id":"0.0-1.0-0.40","subject_id":"60fc741369c95ce0ee91b20e","study_id":"6205543bd1cd84ff15f8af22","session_id":"6205ae06e219ba950debd185"},{"response":"connections","sentence_id":169,"sentence":"Two things are essential for success: wealth and % %","joke_ending":"money","nonjoke_ending":"fame","trial_type":"cloze","trial_index":42,"time_elapsed":370951,"internal_node_id":"0.0-1.0-0.41","subject_id":"60fc741369c95ce0ee91b20e","study_id":"6205543bd1cd84ff15f8af22","session_id":"6205ae06e219ba950debd185"},{"response":"dealership","sentence_id":171,"sentence":"My husband took the money we were saving to buy a new car and blew it all at the % %","joke_ending":"laundry","nonjoke_ending":"tables","trial_type":"cloze","trial_index":43,"time_elapsed":379142,"internal_node_id":"0.0-1.0-0.42","subject_id":"60fc741369c95ce0ee91b20e","study_id":"6205543bd1cd84ff15f8af22","session_id":"6205ae06e219ba950debd185"},{"response":"hangover","sentence_id":143,"sentence":"The curse of heavy drinking is that afterwards you get a huge % %","joke_ending":"bill","nonjoke_ending":"headache","trial_type":"cloze","trial_index":44,"time_elapsed":384608,"internal_node_id":"0.0-1.0-0.43","subject_id":"60fc741369c95ce0ee91b20e","study_id":"6205543bd1cd84ff15f8af22","session_id":"6205ae06e219ba950debd185"},{"response":"pants","sentence_id":180,"sentence":"Another thing a small boy is constantly outgrowing is his % %","joke_ending":"allowance","nonjoke_ending":"underwear","trial_type":"cloze","trial_index":45,"time_elapsed":389942,"internal_node_id":"0.0-1.0-0.44","subject_id":"60fc741369c95ce0ee91b20e","study_id":"6205543bd1cd84ff15f8af22","session_id":"6205ae06e219ba950debd185"}]