[{"rt":3875,"stimulus":"\n        <p>In this experiment you will see sentences with the final word removed, like this:</p>\n        <p>Jack and Jill went up the ______.</p>\n        <p>Your task is to provide your best guess of the word that completes the sentence. Your response must be a single word.</p>\n        <p>There are 45 sentences to complete.</p>\n        <p>After you input a word, you may use the button on the screen or the enter key to advance to the next sentence.</p>\n        <p>Press Enter to begin.</p>\n      ","response":"enter","trial_type":"html-keyboard-response","trial_index":0,"time_elapsed":3895,"internal_node_id":"0.0-0.0","subject_id":"6116e5bdb371fde5a0af9255","study_id":"6205543bd1cd84ff15f8af22","session_id":"6205750fb33167c661beb91b"},{"response":"godlyness","sentence_id":18,"sentence":"The only thing money can't buy is % %","joke_ending":"poverty","nonjoke_ending":"generosity","trial_type":"cloze","trial_index":1,"time_elapsed":24614,"internal_node_id":"0.0-1.0-0.0","subject_id":"6116e5bdb371fde5a0af9255","study_id":"6205543bd1cd84ff15f8af22","session_id":"6205750fb33167c661beb91b"},{"response":"money","sentence_id":14,"sentence":"I decided to start saving for a rainy day, so I went to a savings and loan and deposited my % %","joke_ending":"umbrella","nonjoke_ending":"pay","trial_type":"cloze","trial_index":2,"time_elapsed":38475,"internal_node_id":"0.0-1.0-0.1","subject_id":"6116e5bdb371fde5a0af9255","study_id":"6205543bd1cd84ff15f8af22","session_id":"6205750fb33167c661beb91b"},{"response":"peroxide","sentence_id":17,"sentence":"Where I'm from, the two most common elements are hydrogen and % %","joke_ending":"stupidity","nonjoke_ending":"nitrogen","trial_type":"cloze","trial_index":3,"time_elapsed":43565,"internal_node_id":"0.0-1.0-0.2","subject_id":"6116e5bdb371fde5a0af9255","study_id":"6205543bd1cd84ff15f8af22","session_id":"6205750fb33167c661beb91b"},{"response":"lovers","sentence_id":35,"sentence":"A vacation is the shortest distance between two % %","joke_ending":"paychecks","nonjoke_ending":"locations","trial_type":"cloze","trial_index":4,"time_elapsed":55263,"internal_node_id":"0.0-1.0-0.3","subject_id":"6116e5bdb371fde5a0af9255","study_id":"6205543bd1cd84ff15f8af22","session_id":"6205750fb33167c661beb91b"},{"response":"work","sentence_id":39,"sentence":"We live in a lovely suburb; it's just two miles beyond our % %","joke_ending":"income","nonjoke_ending":"town","trial_type":"cloze","trial_index":5,"time_elapsed":61052,"internal_node_id":"0.0-1.0-0.4","subject_id":"6116e5bdb371fde5a0af9255","study_id":"6205543bd1cd84ff15f8af22","session_id":"6205750fb33167c661beb91b"},{"response":"finalds","sentence_id":36,"sentence":"He is probably the best boxer in the country, but he always loses in the % %","joke_ending":"city","nonjoke_ending":"competition","trial_type":"cloze","trial_index":6,"time_elapsed":67087,"internal_node_id":"0.0-1.0-0.5","subject_id":"6116e5bdb371fde5a0af9255","study_id":"6205543bd1cd84ff15f8af22","session_id":"6205750fb33167c661beb91b"},{"response":"lonelyness","sentence_id":4,"sentence":"My mechanic could not fix my brakes, so he fixed my % %","joke_ending":"horn","nonjoke_ending":"clutch","trial_type":"cloze","trial_index":7,"time_elapsed":84201,"internal_node_id":"0.0-1.0-0.6","subject_id":"6116e5bdb371fde5a0af9255","study_id":"6205543bd1cd84ff15f8af22","session_id":"6205750fb33167c661beb91b"},{"response":"ladies","sentence_id":37,"sentence":"To get something done, a committee should consist of no more than three people, two of whom are % %","joke_ending":"dead","nonjoke_ending":"workers","trial_type":"cloze","trial_index":8,"time_elapsed":90939,"internal_node_id":"0.0-1.0-0.7","subject_id":"6116e5bdb371fde5a0af9255","study_id":"6205543bd1cd84ff15f8af22","session_id":"6205750fb33167c661beb91b"},{"response":"light","sentence_id":11,"sentence":"Nothing in the known universe travels faster than % %","joke_ending":"gossip","nonjoke_ending":"radiation","trial_type":"cloze","trial_index":9,"time_elapsed":102501,"internal_node_id":"0.0-1.0-0.8","subject_id":"6116e5bdb371fde5a0af9255","study_id":"6205543bd1cd84ff15f8af22","session_id":"6205750fb33167c661beb91b"},{"response":"children","sentence_id":6,"sentence":"By the time Mary had her fourteenth child, she'd run out of names to call her % %","joke_ending":"husband","nonjoke_ending":"offspring","trial_type":"cloze","trial_index":10,"time_elapsed":117605,"internal_node_id":"0.0-1.0-0.9","subject_id":"6116e5bdb371fde5a0af9255","study_id":"6205543bd1cd84ff15f8af22","session_id":"6205750fb33167c661beb91b"},{"response":"u","sentence_id":41,"sentence":"Every time I wear my spring coat in the rain, it damages the % %","joke_ending":"springs","nonjoke_ending":"fabric","trial_type":"cloze","trial_index":11,"time_elapsed":125461,"internal_node_id":"0.0-1.0-0.10","subject_id":"6116e5bdb371fde5a0af9255","study_id":"6205543bd1cd84ff15f8af22","session_id":"6205750fb33167c661beb91b"},{"response":"magnolias","sentence_id":34,"sentence":"I asked the florist what I should give to my girlfriend, and he suggested his % %","joke_ending":"address","nonjoke_ending":"tulips","trial_type":"cloze","trial_index":12,"time_elapsed":135080,"internal_node_id":"0.0-1.0-0.11","subject_id":"6116e5bdb371fde5a0af9255","study_id":"6205543bd1cd84ff15f8af22","session_id":"6205750fb33167c661beb91b"},{"response":"times","sentence_id":13,"sentence":"A committee keeps minutes and takes % %","joke_ending":"hours","nonjoke_ending":"votes","trial_type":"cloze","trial_index":13,"time_elapsed":141626,"internal_node_id":"0.0-1.0-0.12","subject_id":"6116e5bdb371fde5a0af9255","study_id":"6205543bd1cd84ff15f8af22","session_id":"6205750fb33167c661beb91b"},{"response":"now","sentence_id":42,"sentence":"The art museum just acquired an early Rembrandt; it's done in % %","joke_ending":"Crayola","nonjoke_ending":"charcoal","trial_type":"cloze","trial_index":14,"time_elapsed":153261,"internal_node_id":"0.0-1.0-0.13","subject_id":"6116e5bdb371fde5a0af9255","study_id":"6205543bd1cd84ff15f8af22","session_id":"6205750fb33167c661beb91b"},{"response":"flashlight","sentence_id":7,"sentence":"A device for finding furniture in the dark is a % %","joke_ending":"shin","nonjoke_ending":"candle","trial_type":"cloze","trial_index":15,"time_elapsed":160101,"internal_node_id":"0.0-1.0-0.14","subject_id":"6116e5bdb371fde5a0af9255","study_id":"6205543bd1cd84ff15f8af22","session_id":"6205750fb33167c661beb91b"},{"response":"diner","sentence_id":29,"sentence":"I went to a place that serves breakfast any time and ordered French toast in the % %","joke_ending":"Renaissance","nonjoke_ending":"nighttime","trial_type":"cloze","trial_index":16,"time_elapsed":169055,"internal_node_id":"0.0-1.0-0.15","subject_id":"6116e5bdb371fde5a0af9255","study_id":"6205543bd1cd84ff15f8af22","session_id":"6205750fb33167c661beb91b"},{"response":"guide","sentence_id":40,"sentence":"The book that tells you where you can go on vacation is called a % %","joke_ending":"checkbook","nonjoke_ending":"guidebook","trial_type":"cloze","trial_index":17,"time_elapsed":177127,"internal_node_id":"0.0-1.0-0.16","subject_id":"6116e5bdb371fde5a0af9255","study_id":"6205543bd1cd84ff15f8af22","session_id":"6205750fb33167c661beb91b"},{"response":"love","sentence_id":31,"sentence":"One thing that makes the world go round is % %","joke_ending":"detours","nonjoke_ending":"greed","trial_type":"cloze","trial_index":18,"time_elapsed":186461,"internal_node_id":"0.0-1.0-0.17","subject_id":"6116e5bdb371fde5a0af9255","study_id":"6205543bd1cd84ff15f8af22","session_id":"6205750fb33167c661beb91b"},{"response":"buildings","sentence_id":32,"sentence":"Another thing that has developed by leaps and bounds is modern % %","joke_ending":"dance","nonjoke_ending":"science","trial_type":"cloze","trial_index":19,"time_elapsed":195070,"internal_node_id":"0.0-1.0-0.18","subject_id":"6116e5bdb371fde5a0af9255","study_id":"6205543bd1cd84ff15f8af22","session_id":"6205750fb33167c661beb91b"},{"response":"score","sentence_id":45,"sentence":"In the game of golf, nothing counts as much as your % %","joke_ending":"opponent","nonjoke_ending":"drives","trial_type":"cloze","trial_index":20,"time_elapsed":198997,"internal_node_id":"0.0-1.0-0.19","subject_id":"6116e5bdb371fde5a0af9255","study_id":"6205543bd1cd84ff15f8af22","session_id":"6205750fb33167c661beb91b"},{"response":"cornbread","sentence_id":22,"sentence":"He asked if I'd join him in a bowl of soup, but I told him we didn't have enough % %","joke_ending":"room","nonjoke_ending":"change","trial_type":"cloze","trial_index":21,"time_elapsed":204742,"internal_node_id":"0.0-1.0-0.20","subject_id":"6116e5bdb371fde5a0af9255","study_id":"6205543bd1cd84ff15f8af22","session_id":"6205750fb33167c661beb91b"},{"response":"hands","sentence_id":44,"sentence":"It's extraordinary what fine poker hands you get when you're playing % %","joke_ending":"bridge","nonjoke_ending":"stud","trial_type":"cloze","trial_index":22,"time_elapsed":209024,"internal_node_id":"0.0-1.0-0.21","subject_id":"6116e5bdb371fde5a0af9255","study_id":"6205543bd1cd84ff15f8af22","session_id":"6205750fb33167c661beb91b"},{"response":"explosion","sentence_id":38,"sentence":"I hope this train stops at Grand Central because if it doesn't, there will be a % %","joke_ending":"crash","nonjoke_ending":"delay","trial_type":"cloze","trial_index":23,"time_elapsed":215598,"internal_node_id":"0.0-1.0-0.22","subject_id":"6116e5bdb371fde5a0af9255","study_id":"6205543bd1cd84ff15f8af22","session_id":"6205750fb33167c661beb91b"},{"response":"weather","sentence_id":25,"sentence":"No patient should leave the hospital until he's strong enough to face the % %","joke_ending":"cashier","nonjoke_ending":"outside","trial_type":"cloze","trial_index":24,"time_elapsed":219244,"internal_node_id":"0.0-1.0-0.23","subject_id":"6116e5bdb371fde5a0af9255","study_id":"6205543bd1cd84ff15f8af22","session_id":"6205750fb33167c661beb91b"},{"response":"chnage","sentence_id":19,"sentence":"He told her he wasn't himself, and she said she'd noticed the % %","joke_ending":"improvement","nonjoke_ending":"problem","trial_type":"cloze","trial_index":25,"time_elapsed":226619,"internal_node_id":"0.0-1.0-0.24","subject_id":"6116e5bdb371fde5a0af9255","study_id":"6205543bd1cd84ff15f8af22","session_id":"6205750fb33167c661beb91b"},{"response":"bus","sentence_id":26,"sentence":"His doctor recommended he stay flat on his back ever since he was hit by a % %","joke_ending":"steamroller","nonjoke_ending":"motorist","trial_type":"cloze","trial_index":26,"time_elapsed":231624,"internal_node_id":"0.0-1.0-0.25","subject_id":"6116e5bdb371fde5a0af9255","study_id":"6205543bd1cd84ff15f8af22","session_id":"6205750fb33167c661beb91b"},{"response":"thousand","sentence_id":1,"sentence":"I let my accountant do my taxes because it saves time: last spring it saved me ten % %","joke_ending":"years","nonjoke_ending":"days","trial_type":"cloze","trial_index":27,"time_elapsed":236658,"internal_node_id":"0.0-1.0-0.26","subject_id":"6116e5bdb371fde5a0af9255","study_id":"6205543bd1cd84ff15f8af22","session_id":"6205750fb33167c661beb91b"},{"response":"jello","sentence_id":43,"sentence":"Some people's only culture is % %","joke_ending":"bacteria","nonjoke_ending":"radio","trial_type":"cloze","trial_index":28,"time_elapsed":240829,"internal_node_id":"0.0-1.0-0.27","subject_id":"6116e5bdb371fde5a0af9255","study_id":"6205543bd1cd84ff15f8af22","session_id":"6205750fb33167c661beb91b"},{"response":"shout","sentence_id":24,"sentence":"The best way to remove coffee stains from a white blouse is with % %","joke_ending":"scissors","nonjoke_ending":"detergent","trial_type":"cloze","trial_index":29,"time_elapsed":245395,"internal_node_id":"0.0-1.0-0.28","subject_id":"6116e5bdb371fde5a0af9255","study_id":"6205543bd1cd84ff15f8af22","session_id":"6205750fb33167c661beb91b"},{"response":"father","sentence_id":28,"sentence":"One person who sure makes a long story short is my % %","joke_ending":"editor","nonjoke_ending":"aunt","trial_type":"cloze","trial_index":30,"time_elapsed":255253,"internal_node_id":"0.0-1.0-0.29","subject_id":"6116e5bdb371fde5a0af9255","study_id":"6205543bd1cd84ff15f8af22","session_id":"6205750fb33167c661beb91b"},{"response":"thing","sentence_id":15,"sentence":"She told him he looked like a million, and she meant every % %","joke_ending":"century","nonjoke_ending":"syllable","trial_type":"cloze","trial_index":31,"time_elapsed":265317,"internal_node_id":"0.0-1.0-0.30","subject_id":"6116e5bdb371fde5a0af9255","study_id":"6205543bd1cd84ff15f8af22","session_id":"6205750fb33167c661beb91b"},{"response":"venice","sentence_id":20,"sentence":"Though most people think it's Rome, the world's most beloved capital is actually % %","joke_ending":"dollars","nonjoke_ending":"Vienna","trial_type":"cloze","trial_index":32,"time_elapsed":271470,"internal_node_id":"0.0-1.0-0.31","subject_id":"6116e5bdb371fde5a0af9255","study_id":"6205543bd1cd84ff15f8af22","session_id":"6205750fb33167c661beb91b"},{"response":"outside","sentence_id":33,"sentence":"Frequent naps prevent old age, especially when taken while % %","joke_ending":"driving","nonjoke_ending":"relaxed","trial_type":"cloze","trial_index":33,"time_elapsed":288983,"internal_node_id":"0.0-1.0-0.32","subject_id":"6116e5bdb371fde5a0af9255","study_id":"6205543bd1cd84ff15f8af22","session_id":"6205750fb33167c661beb91b"},{"response":"random","sentence_id":5,"sentence":"The only ones who want me for my body are % %","joke_ending":"mosquitoes","nonjoke_ending":"losers","trial_type":"cloze","trial_index":34,"time_elapsed":297200,"internal_node_id":"0.0-1.0-0.33","subject_id":"6116e5bdb371fde5a0af9255","study_id":"6205543bd1cd84ff15f8af22","session_id":"6205750fb33167c661beb91b"},{"response":"handsomes","sentence_id":30,"sentence":"She always told girls not to look for a husband but just to date % %","joke_ending":"bachelors","nonjoke_ending":"someone","trial_type":"cloze","trial_index":35,"time_elapsed":310325,"internal_node_id":"0.0-1.0-0.34","subject_id":"6116e5bdb371fde5a0af9255","study_id":"6205543bd1cd84ff15f8af22","session_id":"6205750fb33167c661beb91b"},{"response":"debt","sentence_id":3,"sentence":"The last time a guy in a mask took all my money, I was in % %","joke_ending":"surgery","nonjoke_ending":"shock","trial_type":"cloze","trial_index":36,"time_elapsed":313190,"internal_node_id":"0.0-1.0-0.35","subject_id":"6116e5bdb371fde5a0af9255","study_id":"6205543bd1cd84ff15f8af22","session_id":"6205750fb33167c661beb91b"},{"response":"soap","sentence_id":9,"sentence":"Everyone had so much fun jumping into the swimming pool, we decided to put in a little % %","joke_ending":"water","nonjoke_ending":"platform","trial_type":"cloze","trial_index":37,"time_elapsed":325331,"internal_node_id":"0.0-1.0-0.36","subject_id":"6116e5bdb371fde5a0af9255","study_id":"6205543bd1cd84ff15f8af22","session_id":"6205750fb33167c661beb91b"},{"response":"pray","sentence_id":10,"sentence":"Sunday is the day we bow our heads and % %","joke_ending":"putt","nonjoke_ending":"rest","trial_type":"cloze","trial_index":38,"time_elapsed":328199,"internal_node_id":"0.0-1.0-0.37","subject_id":"6116e5bdb371fde5a0af9255","study_id":"6205543bd1cd84ff15f8af22","session_id":"6205750fb33167c661beb91b"},{"response":"frduge","sentence_id":27,"sentence":"The best way to keep the milk from turning sour is to keep it in the % %","joke_ending":"cow","nonjoke_ending":"cold","trial_type":"cloze","trial_index":39,"time_elapsed":333227,"internal_node_id":"0.0-1.0-0.38","subject_id":"6116e5bdb371fde5a0af9255","study_id":"6205543bd1cd84ff15f8af22","session_id":"6205750fb33167c661beb91b"},{"response":"check","sentence_id":12,"sentence":"He owns stock in a company that pays quarterly dividends, so every three months they send him a % %","joke_ending":"quarter","nonjoke_ending":"statement","trial_type":"cloze","trial_index":40,"time_elapsed":337510,"internal_node_id":"0.0-1.0-0.39","subject_id":"6116e5bdb371fde5a0af9255","study_id":"6205543bd1cd84ff15f8af22","session_id":"6205750fb33167c661beb91b"},{"response":"priest","sentence_id":8,"sentence":"My doctor has never violated his oath: the oath he took years ago to become a % %","joke_ending":"millionaire","nonjoke_ending":"practitioner","trial_type":"cloze","trial_index":41,"time_elapsed":343414,"internal_node_id":"0.0-1.0-0.40","subject_id":"6116e5bdb371fde5a0af9255","study_id":"6205543bd1cd84ff15f8af22","session_id":"6205750fb33167c661beb91b"},{"response":"relationshio","sentence_id":21,"sentence":"Some people think courtship is the first in a series of steps leading to % %","joke_ending":"divorce","nonjoke_ending":"romance","trial_type":"cloze","trial_index":42,"time_elapsed":349978,"internal_node_id":"0.0-1.0-0.41","subject_id":"6116e5bdb371fde5a0af9255","study_id":"6205543bd1cd84ff15f8af22","session_id":"6205750fb33167c661beb91b"},{"response":"gang","sentence_id":23,"sentence":"The cops claimed that the prisoner just decided to come clean, but most people think he was forced into the % %","joke_ending":"bathtub","nonjoke_ending":"admission","trial_type":"cloze","trial_index":43,"time_elapsed":355360,"internal_node_id":"0.0-1.0-0.42","subject_id":"6116e5bdb371fde5a0af9255","study_id":"6205543bd1cd84ff15f8af22","session_id":"6205750fb33167c661beb91b"},{"response":"aches","sentence_id":16,"sentence":"Our son brought home a note from school saying they need a written excuse for his % %","joke_ending":"presence","nonjoke_ending":"tardiness","trial_type":"cloze","trial_index":44,"time_elapsed":362404,"internal_node_id":"0.0-1.0-0.43","subject_id":"6116e5bdb371fde5a0af9255","study_id":"6205543bd1cd84ff15f8af22","session_id":"6205750fb33167c661beb91b"},{"response":"linited","sentence_id":2,"sentence":"It is not hard to meet expenses: they are % %","joke_ending":"everywhere","nonjoke_ending":"affordable","trial_type":"cloze","trial_index":45,"time_elapsed":367800,"internal_node_id":"0.0-1.0-0.44","subject_id":"6116e5bdb371fde5a0af9255","study_id":"6205543bd1cd84ff15f8af22","session_id":"6205750fb33167c661beb91b"}]