[{"rt":8718,"stimulus":"\n        <p>In this experiment you will see sentences with the final word removed, like this:</p>\n        <p>Jack and Jill went up the ______.</p>\n        <p>Your task is to provide your best guess of the word that completes the sentence. Your response must be a single word.</p>\n        <p>There are 45 sentences to complete.</p>\n        <p>After you input a word, you may use the button on the screen or the enter key to advance to the next sentence.</p>\n        <p>Press Enter to begin.</p>\n      ","response":"enter","trial_type":"html-keyboard-response","trial_index":0,"time_elapsed":8739,"internal_node_id":"0.0-0.0","subject_id":"610f51db5b5a6673160e24aa","study_id":"6205543bd1cd84ff15f8af22","session_id":"62057b62ccf6af2d071c81d0"},{"response":"evil","sentence_id":74,"sentence":"Money is the root of all % %","joke_ending":"wealth","nonjoke_ending":"problems","trial_type":"cloze","trial_index":1,"time_elapsed":10920,"internal_node_id":"0.0-1.0-0.0","subject_id":"610f51db5b5a6673160e24aa","study_id":"6205543bd1cd84ff15f8af22","session_id":"62057b62ccf6af2d071c81d0"},{"response":"eyes","sentence_id":73,"sentence":"The face of a child can say it all, especially the % %","joke_ending":"mouth","nonjoke_ending":"expression","trial_type":"cloze","trial_index":2,"time_elapsed":15319,"internal_node_id":"0.0-1.0-0.1","subject_id":"610f51db5b5a6673160e24aa","study_id":"6205543bd1cd84ff15f8af22","session_id":"62057b62ccf6af2d071c81d0"},{"response":"tearing","sentence_id":71,"sentence":"The first step in building staircases is often % %","joke_ending":"squeaking","nonjoke_ending":"challenging","trial_type":"cloze","trial_index":3,"time_elapsed":28611,"internal_node_id":"0.0-1.0-0.2","subject_id":"610f51db5b5a6673160e24aa","study_id":"6205543bd1cd84ff15f8af22","session_id":"62057b62ccf6af2d071c81d0"},{"response":"opinions","sentence_id":67,"sentence":"On the other hand, you have different % %","joke_ending":"fingers","nonjoke_ending":"opinions","trial_type":"cloze","trial_index":4,"time_elapsed":33171,"internal_node_id":"0.0-1.0-0.3","subject_id":"610f51db5b5a6673160e24aa","study_id":"6205543bd1cd84ff15f8af22","session_id":"62057b62ccf6af2d071c81d0"},{"response":"celebrities","sentence_id":59,"sentence":"Most of the people running for office are not politicians; they're % %","joke_ending":"commuters","nonjoke_ending":"candidates","trial_type":"cloze","trial_index":5,"time_elapsed":40526,"internal_node_id":"0.0-1.0-0.4","subject_id":"610f51db5b5a6673160e24aa","study_id":"6205543bd1cd84ff15f8af22","session_id":"62057b62ccf6af2d071c81d0"},{"response":"ending","sentence_id":58,"sentence":"The show had one act that was really offbeat: the % %","joke_ending":"singer","nonjoke_ending":"clowns","trial_type":"cloze","trial_index":6,"time_elapsed":45916,"internal_node_id":"0.0-1.0-0.5","subject_id":"610f51db5b5a6673160e24aa","study_id":"6205543bd1cd84ff15f8af22","session_id":"62057b62ccf6af2d071c81d0"},{"response":"terrible","sentence_id":78,"sentence":"I own the world's worst thesaurus. Not only is it awful, it's % %","joke_ending":"awful","nonjoke_ending":"annoying","trial_type":"cloze","trial_index":7,"time_elapsed":51020,"internal_node_id":"0.0-1.0-0.6","subject_id":"610f51db5b5a6673160e24aa","study_id":"6205543bd1cd84ff15f8af22","session_id":"62057b62ccf6af2d071c81d0"},{"response":"hype","sentence_id":75,"sentence":"I don't approve of political jokes. I've seen too many of them get % %","joke_ending":"elected","nonjoke_ending":"offensive","trial_type":"cloze","trial_index":8,"time_elapsed":56229,"internal_node_id":"0.0-1.0-0.7","subject_id":"610f51db5b5a6673160e24aa","study_id":"6205543bd1cd84ff15f8af22","session_id":"62057b62ccf6af2d071c81d0"},{"response":"enemy","sentence_id":55,"sentence":"The only person who sticks closer to you in adversity than a friend is a % %","joke_ending":"creditor","nonjoke_ending":"spouse","trial_type":"cloze","trial_index":9,"time_elapsed":61637,"internal_node_id":"0.0-1.0-0.8","subject_id":"610f51db5b5a6673160e24aa","study_id":"6205543bd1cd84ff15f8af22","session_id":"62057b62ccf6af2d071c81d0"},{"response":"people","sentence_id":57,"sentence":"Many things run in families, especially % %","joke_ending":"noses","nonjoke_ending":"strength","trial_type":"cloze","trial_index":10,"time_elapsed":65397,"internal_node_id":"0.0-1.0-0.9","subject_id":"610f51db5b5a6673160e24aa","study_id":"6205543bd1cd84ff15f8af22","session_id":"62057b62ccf6af2d071c81d0"},{"response":"ab","sentence_id":72,"sentence":"There are a bunch of different crunches that affect the abs … my favorite is % %","joke_ending":"Nestle's","nonjoke_ending":"Reverse","trial_type":"cloze","trial_index":11,"time_elapsed":75415,"internal_node_id":"0.0-1.0-0.10","subject_id":"610f51db5b5a6673160e24aa","study_id":"6205543bd1cd84ff15f8af22","session_id":"62057b62ccf6af2d071c81d0"},{"response":"blonde","sentence_id":68,"sentence":"She got her good looks from her father; he's a % %","joke_ending":"surgeon","nonjoke_ending":"model","trial_type":"cloze","trial_index":12,"time_elapsed":84338,"internal_node_id":"0.0-1.0-0.11","subject_id":"610f51db5b5a6673160e24aa","study_id":"6205543bd1cd84ff15f8af22","session_id":"62057b62ccf6af2d071c81d0"},{"response":"ugier","sentence_id":86,"sentence":"I saw a microbiologist today. I thought they would be % %","joke_ending":"smaller","nonjoke_ending":"nerdier","trial_type":"cloze","trial_index":13,"time_elapsed":88682,"internal_node_id":"0.0-1.0-0.12","subject_id":"610f51db5b5a6673160e24aa","study_id":"6205543bd1cd84ff15f8af22","session_id":"62057b62ccf6af2d071c81d0"},{"response":"cotton","sentence_id":53,"sentence":"The only crop that is grown in America and harvested abroad is the American % %","joke_ending":"tourist","nonjoke_ending":"tobacco","trial_type":"cloze","trial_index":14,"time_elapsed":94130,"internal_node_id":"0.0-1.0-0.13","subject_id":"610f51db5b5a6673160e24aa","study_id":"6205543bd1cd84ff15f8af22","session_id":"62057b62ccf6af2d071c81d0"},{"response":"oneself","sentence_id":46,"sentence":"Autobiography is an unrivaled vehicle for telling the truth about % %","joke_ending":"others","nonjoke_ending":"yourself","trial_type":"cloze","trial_index":15,"time_elapsed":100731,"internal_node_id":"0.0-1.0-0.14","subject_id":"610f51db5b5a6673160e24aa","study_id":"6205543bd1cd84ff15f8af22","session_id":"62057b62ccf6af2d071c81d0"},{"response":"hearing","sentence_id":76,"sentence":"Advertising messages have to be made loud and clear for the hard of % %","joke_ending":"thinking","nonjoke_ending":"hearing","trial_type":"cloze","trial_index":16,"time_elapsed":104913,"internal_node_id":"0.0-1.0-0.15","subject_id":"610f51db5b5a6673160e24aa","study_id":"6205543bd1cd84ff15f8af22","session_id":"62057b62ccf6af2d071c81d0"},{"response":"bad","sentence_id":79,"sentence":"You're not yourself today. It's % %","joke_ending":"nice","nonjoke_ending":"concerning","trial_type":"cloze","trial_index":17,"time_elapsed":107649,"internal_node_id":"0.0-1.0-0.16","subject_id":"610f51db5b5a6673160e24aa","study_id":"6205543bd1cd84ff15f8af22","session_id":"62057b62ccf6af2d071c81d0"},{"response":"plain","sentence_id":88,"sentence":"I spilled spot remover on my dog. Now he's % %","joke_ending":"gone","nonjoke_ending":"clean","trial_type":"cloze","trial_index":18,"time_elapsed":112466,"internal_node_id":"0.0-1.0-0.17","subject_id":"610f51db5b5a6673160e24aa","study_id":"6205543bd1cd84ff15f8af22","session_id":"62057b62ccf6af2d071c81d0"},{"response":"actor","sentence_id":66,"sentence":"Most people are shocked when they find out how bad I am as an % %","joke_ending":"electrician","nonjoke_ending":"actor","trial_type":"cloze","trial_index":19,"time_elapsed":117821,"internal_node_id":"0.0-1.0-0.18","subject_id":"610f51db5b5a6673160e24aa","study_id":"6205543bd1cd84ff15f8af22","session_id":"62057b62ccf6af2d071c81d0"},{"response":"alone","sentence_id":48,"sentence":"The penalty for dishonesty is the disgrace of dying % %","joke_ending":"rich","nonjoke_ending":"unloved","trial_type":"cloze","trial_index":20,"time_elapsed":121516,"internal_node_id":"0.0-1.0-0.19","subject_id":"610f51db5b5a6673160e24aa","study_id":"6205543bd1cd84ff15f8af22","session_id":"62057b62ccf6af2d071c81d0"},{"response":"dolphins","sentence_id":87,"sentence":"Don't worry, there are no sharks in these waters. They don't get along with the % %","joke_ending":"crocodiles","nonjoke_ending":"algae","trial_type":"cloze","trial_index":21,"time_elapsed":125861,"internal_node_id":"0.0-1.0-0.20","subject_id":"610f51db5b5a6673160e24aa","study_id":"6205543bd1cd84ff15f8af22","session_id":"62057b62ccf6af2d071c81d0"},{"response":"mother","sentence_id":81,"sentence":"I was raised as an only child, to the disappointment of my % %","joke_ending":"sister","nonjoke_ending":"parents","trial_type":"cloze","trial_index":22,"time_elapsed":128709,"internal_node_id":"0.0-1.0-0.21","subject_id":"610f51db5b5a6673160e24aa","study_id":"6205543bd1cd84ff15f8af22","session_id":"62057b62ccf6af2d071c81d0"},{"response":"mother","sentence_id":65,"sentence":"Is it okay for me to start drinking as soon as the kids are at school, or am I just a terrible % %","joke_ending":"teacher","nonjoke_ending":"parent","trial_type":"cloze","trial_index":23,"time_elapsed":132326,"internal_node_id":"0.0-1.0-0.22","subject_id":"610f51db5b5a6673160e24aa","study_id":"6205543bd1cd84ff15f8af22","session_id":"62057b62ccf6af2d071c81d0"},{"response":"hungry","sentence_id":61,"sentence":"I can always tell when my wife is lying just by looking at her. I can also tell when she's % %","joke_ending":"standing","nonjoke_ending":"honest","trial_type":"cloze","trial_index":24,"time_elapsed":136333,"internal_node_id":"0.0-1.0-0.23","subject_id":"610f51db5b5a6673160e24aa","study_id":"6205543bd1cd84ff15f8af22","session_id":"62057b62ccf6af2d071c81d0"},{"response":"sign","sentence_id":64,"sentence":"I saw a sign the other day that said, 'Watch for children,' and I thought, 'That sounds like a fair % %'","joke_ending":"trade","nonjoke_ending":"warning","trial_type":"cloze","trial_index":25,"time_elapsed":142119,"internal_node_id":"0.0-1.0-0.24","subject_id":"610f51db5b5a6673160e24aa","study_id":"6205543bd1cd84ff15f8af22","session_id":"62057b62ccf6af2d071c81d0"},{"response":"catholics","sentence_id":51,"sentence":"My church welcomes all denominations but prefers % %","joke_ending":"twenties","nonjoke_ending":"Mormons","trial_type":"cloze","trial_index":26,"time_elapsed":148042,"internal_node_id":"0.0-1.0-0.25","subject_id":"610f51db5b5a6673160e24aa","study_id":"6205543bd1cd84ff15f8af22","session_id":"62057b62ccf6af2d071c81d0"},{"response":"hill","sentence_id":56,"sentence":"One good turn gets most of the % %","joke_ending":"blanket","nonjoke_ending":"profit","trial_type":"cloze","trial_index":27,"time_elapsed":153026,"internal_node_id":"0.0-1.0-0.26","subject_id":"610f51db5b5a6673160e24aa","study_id":"6205543bd1cd84ff15f8af22","session_id":"62057b62ccf6af2d071c81d0"},{"response":"mishap","sentence_id":82,"sentence":"You are supposed to learn from your mistakes, so that you don't have more than one % %","joke_ending":"child","nonjoke_ending":"failure","trial_type":"cloze","trial_index":28,"time_elapsed":157074,"internal_node_id":"0.0-1.0-0.27","subject_id":"610f51db5b5a6673160e24aa","study_id":"6205543bd1cd84ff15f8af22","session_id":"62057b62ccf6af2d071c81d0"},{"response":"money","sentence_id":83,"sentence":"I decided to start saving for a rainy day, so I went to a savings and loan to deposit my % %","joke_ending":"umbrella","nonjoke_ending":"paycheck","trial_type":"cloze","trial_index":29,"time_elapsed":162483,"internal_node_id":"0.0-1.0-0.28","subject_id":"610f51db5b5a6673160e24aa","study_id":"6205543bd1cd84ff15f8af22","session_id":"62057b62ccf6af2d071c81d0"},{"response":"spot","sentence_id":90,"sentence":"When everything is coming your way, you're in the wrong % %","joke_ending":"lane","nonjoke_ending":"place","trial_type":"cloze","trial_index":30,"time_elapsed":166162,"internal_node_id":"0.0-1.0-0.29","subject_id":"610f51db5b5a6673160e24aa","study_id":"6205543bd1cd84ff15f8af22","session_id":"62057b62ccf6af2d071c81d0"},{"response":"art","sentence_id":63,"sentence":"The teacher says to the proud mother: Your son is creative and full of new ideas. Especially when it comes to % %","joke_ending":"spelling","nonjoke_ending":"music","trial_type":"cloze","trial_index":31,"time_elapsed":170234,"internal_node_id":"0.0-1.0-0.30","subject_id":"610f51db5b5a6673160e24aa","study_id":"6205543bd1cd84ff15f8af22","session_id":"62057b62ccf6af2d071c81d0"},{"response":"spain","sentence_id":47,"sentence":"All roads lead to Rome, and all detours lead to % %","joke_ending":"profanity","nonjoke_ending":"somewhere","trial_type":"cloze","trial_index":32,"time_elapsed":173330,"internal_node_id":"0.0-1.0-0.31","subject_id":"610f51db5b5a6673160e24aa","study_id":"6205543bd1cd84ff15f8af22","session_id":"62057b62ccf6af2d071c81d0"},{"response":"cigarettes","sentence_id":60,"sentence":"She read so much about the bad effects of smoking she decided she'd have to give up % %","joke_ending":"reading","nonjoke_ending":"habit","trial_type":"cloze","trial_index":33,"time_elapsed":181117,"internal_node_id":"0.0-1.0-0.32","subject_id":"610f51db5b5a6673160e24aa","study_id":"6205543bd1cd84ff15f8af22","session_id":"62057b62ccf6af2d071c81d0"},{"response":"ecosystem","sentence_id":85,"sentence":"Chameleons are supposed to blend well, but I think it's ruined this % %","joke_ending":"smoothie","nonjoke_ending":"drawing","trial_type":"cloze","trial_index":34,"time_elapsed":187059,"internal_node_id":"0.0-1.0-0.33","subject_id":"610f51db5b5a6673160e24aa","study_id":"6205543bd1cd84ff15f8af22","session_id":"62057b62ccf6af2d071c81d0"},{"response":"google","sentence_id":89,"sentence":"The police officer told me he was looking for a man with one eye and I told him he should use % %","joke_ending":"both","nonjoke_ending":"witnesses","trial_type":"cloze","trial_index":35,"time_elapsed":192336,"internal_node_id":"0.0-1.0-0.34","subject_id":"610f51db5b5a6673160e24aa","study_id":"6205543bd1cd84ff15f8af22","session_id":"62057b62ccf6af2d071c81d0"},{"response":"girls","sentence_id":49,"sentence":"Figures don't lie, except on the % %","joke_ending":"beaches","nonjoke_ending":"page","trial_type":"cloze","trial_index":36,"time_elapsed":198352,"internal_node_id":"0.0-1.0-0.35","subject_id":"610f51db5b5a6673160e24aa","study_id":"6205543bd1cd84ff15f8af22","session_id":"62057b62ccf6af2d071c81d0"},{"response":"braincells","sentence_id":54,"sentence":"The difference between a dog and fox is about five % %","joke_ending":"beers","nonjoke_ending":"degrees","trial_type":"cloze","trial_index":37,"time_elapsed":203304,"internal_node_id":"0.0-1.0-0.36","subject_id":"610f51db5b5a6673160e24aa","study_id":"6205543bd1cd84ff15f8af22","session_id":"62057b62ccf6af2d071c81d0"},{"response":"dead","sentence_id":80,"sentence":"Three may keep a secret, if two of them are % %","joke_ending":"dead","nonjoke_ending":"loyal","trial_type":"cloze","trial_index":38,"time_elapsed":206960,"internal_node_id":"0.0-1.0-0.37","subject_id":"610f51db5b5a6673160e24aa","study_id":"6205543bd1cd84ff15f8af22","session_id":"62057b62ccf6af2d071c81d0"},{"response":"water","sentence_id":77,"sentence":"Someone asked me to make a donation to the local swimming pool. I gave him a cup of % %","joke_ending":"water","nonjoke_ending":"coins","trial_type":"cloze","trial_index":39,"time_elapsed":211384,"internal_node_id":"0.0-1.0-0.38","subject_id":"610f51db5b5a6673160e24aa","study_id":"6205543bd1cd84ff15f8af22","session_id":"62057b62ccf6af2d071c81d0"},{"response":"plastic","sentence_id":52,"sentence":"Modern science is amazing: garbage is now being made into % %","joke_ending":"movies","nonjoke_ending":"gasoline","trial_type":"cloze","trial_index":40,"time_elapsed":217566,"internal_node_id":"0.0-1.0-0.39","subject_id":"610f51db5b5a6673160e24aa","study_id":"6205543bd1cd84ff15f8af22","session_id":"62057b62ccf6af2d071c81d0"},{"response":"citygoers","sentence_id":62,"sentence":"Every other minute a person gets run over by a car in New York. This is a great health risk for the % %","joke_ending":"person","nonjoke_ending":"population","trial_type":"cloze","trial_index":41,"time_elapsed":226257,"internal_node_id":"0.0-1.0-0.40","subject_id":"610f51db5b5a6673160e24aa","study_id":"6205543bd1cd84ff15f8af22","session_id":"62057b62ccf6af2d071c81d0"},{"response":"night","sentence_id":69,"sentence":"I sleep at least 8 hours a day and at least 10 at % %","joke_ending":"night","nonjoke_ending":"home","trial_type":"cloze","trial_index":42,"time_elapsed":229169,"internal_node_id":"0.0-1.0-0.41","subject_id":"610f51db5b5a6673160e24aa","study_id":"6205543bd1cd84ff15f8af22","session_id":"62057b62ccf6af2d071c81d0"},{"response":"dead","sentence_id":84,"sentence":"If Facebook doesn't get back up soon, I might end up % %","joke_ending":"vaccinated","nonjoke_ending":"annoyed","trial_type":"cloze","trial_index":43,"time_elapsed":231817,"internal_node_id":"0.0-1.0-0.42","subject_id":"610f51db5b5a6673160e24aa","study_id":"6205543bd1cd84ff15f8af22","session_id":"62057b62ccf6af2d071c81d0"},{"response":"awful","sentence_id":70,"sentence":"I removed all the bad food from the house. It was % %","joke_ending":"delicious","nonjoke_ending":"tiring","trial_type":"cloze","trial_index":44,"time_elapsed":235209,"internal_node_id":"0.0-1.0-0.43","subject_id":"610f51db5b5a6673160e24aa","study_id":"6205543bd1cd84ff15f8af22","session_id":"62057b62ccf6af2d071c81d0"},{"response":"food","sentence_id":50,"sentence":"This house comes with lots of extras, mostly % %","joke_ending":"termites","nonjoke_ending":"upgrades","trial_type":"cloze","trial_index":45,"time_elapsed":237905,"internal_node_id":"0.0-1.0-0.44","subject_id":"610f51db5b5a6673160e24aa","study_id":"6205543bd1cd84ff15f8af22","session_id":"62057b62ccf6af2d071c81d0"}]